CHT
    79.99999    95.99979     0.01000    15.00000     0.10000    43.50000     0.00000    30.00000     0.50000  1601    10.0     0.00
PE 10.000KE/1  Ex=0.000eV WF=0.000eV Ck=XL Det=CTR1 
  Ekin    Phi    Theta  Counts
  79.990 43.500  0.000 100
  79.980 43.500  0.000 83
  79.970 43.500  0.000 87
  79.960 43.500  0.000 91
  79.950 43.500  0.000 95
  79.940 43.500  0.000 77
  79.930 43.500  0.000 101
  79.920 43.500  0.000 86
  79.910 43.500  0.000 101
  79.900 43.500  0.000 84
  79.890 43.500  0.000 95
  79.880 43.500  0.000 98
  79.870 43.500  0.000 83
  79.860 43.500  0.000 89
  79.850 43.500  0.000 77
  79.840 43.500  0.000 73
  79.830 43.500  0.000 103
  79.820 43.500  0.000 90
  79.810 43.500  0.000 81
  79.800 43.500  0.000 83
  79.790 43.500  0.000 75
  79.780 43.500  0.000 75
  79.770 43.500  0.000 80
  79.760 43.500  0.000 97
  79.750 43.500  0.000 72
  79.740 43.500  0.000 66
  79.730 43.500  0.000 95
  79.720 43.500  0.000 70
  79.710 43.500  0.000 103
  79.700 43.500  0.000 88
  79.690 43.500  0.000 90
  79.680 43.500  0.000 86
  79.670 43.500  0.000 83
  79.660 43.500  0.000 90
  79.650 43.500  0.000 86
  79.640 43.500  0.000 79
  79.630 43.500  0.000 76
  79.620 43.500  0.000 89
  79.610 43.500  0.000 105
  79.600 43.500  0.000 90
  79.590 43.500  0.000 77
  79.580 43.500  0.000 95
  79.570 43.500  0.000 98
  79.560 43.500  0.000 84
  79.550 43.500  0.000 84
  79.540 43.500  0.000 85
  79.530 43.500  0.000 98
  79.520 43.500  0.000 101
  79.510 43.500  0.000 97
  79.500 43.500  0.000 89
  79.490 43.500  0.000 78
  79.480 43.500  0.000 84
  79.470 43.500  0.000 90
  79.460 43.500  0.000 75
  79.450 43.500  0.000 91
  79.440 43.500  0.000 86
  79.430 43.500  0.000 90
  79.420 43.500  0.000 92
  79.410 43.500  0.000 85
  79.400 43.500  0.000 89
  79.390 43.500  0.000 84
  79.380 43.500  0.000 78
  79.370 43.500  0.000 95
  79.360 43.500  0.000 86
  79.350 43.500  0.000 90
  79.340 43.500  0.000 75
  79.330 43.500  0.000 76
  79.320 43.500  0.000 81
  79.310 43.500  0.000 78
  79.300 43.500  0.000 73
  79.290 43.500  0.000 89
  79.280 43.500  0.000 103
  79.270 43.500  0.000 98
  79.260 43.500  0.000 80
  79.250 43.500  0.000 89
  79.240 43.500  0.000 101
  79.230 43.500  0.000 79
  79.220 43.500  0.000 75
  79.210 43.500  0.000 77
  79.200 43.500  0.000 94
  79.190 43.500  0.000 75
  79.180 43.500  0.000 84
  79.170 43.500  0.000 89
  79.160 43.500  0.000 78
  79.150 43.500  0.000 74
  79.140 43.500  0.000 82
  79.130 43.500  0.000 84
  79.120 43.500  0.000 85
  79.110 43.500  0.000 86
  79.100 43.500  0.000 82
  79.090 43.500  0.000 93
  79.080 43.500  0.000 84
  79.070 43.500  0.000 83
  79.060 43.500  0.000 75
  79.050 43.500  0.000 81
  79.040 43.500  0.000 77
  79.030 43.500  0.000 100
  79.020 43.500  0.000 86
  79.010 43.500  0.000 86
  79.000 43.500  0.000 79
  78.990 43.500  0.000 81
  78.980 43.500  0.000 90
  78.970 43.500  0.000 97
  78.960 43.500  0.000 91
  78.950 43.500  0.000 88
  78.940 43.500  0.000 98
  78.930 43.500  0.000 94
  78.920 43.500  0.000 106
  78.910 43.500  0.000 97
  78.900 43.500  0.000 87
  78.890 43.500  0.000 93
  78.880 43.500  0.000 91
  78.870 43.500  0.000 73
  78.860 43.500  0.000 105
  78.850 43.500  0.000 71
  78.840 43.500  0.000 84
  78.830 43.500  0.000 85
  78.820 43.500  0.000 95
  78.810 43.500  0.000 87
  78.800 43.500  0.000 80
  78.790 43.500  0.000 98
  78.780 43.500  0.000 80
  78.770 43.500  0.000 86
  78.760 43.500  0.000 65
  78.750 43.500  0.000 98
  78.740 43.500  0.000 72
  78.730 43.500  0.000 83
  78.720 43.500  0.000 91
  78.710 43.500  0.000 83
  78.700 43.500  0.000 81
  78.690 43.500  0.000 92
  78.680 43.500  0.000 84
  78.670 43.500  0.000 81
  78.660 43.500  0.000 101
  78.650 43.500  0.000 92
  78.640 43.500  0.000 62
  78.630 43.500  0.000 70
  78.620 43.500  0.000 84
  78.610 43.500  0.000 90
  78.600 43.500  0.000 83
  78.590 43.500  0.000 91
  78.580 43.500  0.000 103
  78.570 43.500  0.000 82
  78.560 43.500  0.000 90
  78.550 43.500  0.000 75
  78.540 43.500  0.000 87
  78.530 43.500  0.000 86
  78.520 43.500  0.000 90
  78.510 43.500  0.000 92
  78.500 43.500  0.000 90
  78.490 43.500  0.000 62
  78.480 43.500  0.000 91
  78.470 43.500  0.000 83
  78.460 43.500  0.000 93
  78.450 43.500  0.000 95
  78.440 43.500  0.000 90
  78.430 43.500  0.000 90
  78.420 43.500  0.000 89
  78.410 43.500  0.000 91
  78.400 43.500  0.000 77
  78.390 43.500  0.000 109
  78.380 43.500  0.000 100
  78.370 43.500  0.000 78
  78.360 43.500  0.000 89
  78.350 43.500  0.000 114
  78.340 43.500  0.000 85
  78.330 43.500  0.000 100
  78.320 43.500  0.000 98
  78.310 43.500  0.000 90
  78.300 43.500  0.000 70
  78.290 43.500  0.000 83
  78.280 43.500  0.000 85
  78.270 43.500  0.000 103
  78.260 43.500  0.000 83
  78.250 43.500  0.000 96
  78.240 43.500  0.000 89
  78.230 43.500  0.000 87
  78.220 43.500  0.000 90
  78.210 43.500  0.000 64
  78.200 43.500  0.000 96
  78.190 43.500  0.000 94
  78.180 43.500  0.000 85
  78.170 43.500  0.000 84
  78.160 43.500  0.000 87
  78.150 43.500  0.000 87
  78.140 43.500  0.000 92
  78.130 43.500  0.000 96
  78.120 43.500  0.000 87
  78.110 43.500  0.000 95
  78.100 43.500  0.000 98
  78.090 43.500  0.000 89
  78.080 43.500  0.000 115
  78.070 43.500  0.000 92
  78.060 43.500  0.000 98
  78.050 43.500  0.000 91
  78.040 43.500  0.000 92
  78.030 43.500  0.000 92
  78.020 43.500  0.000 96
  78.010 43.500  0.000 82
  78.000 43.500  0.000 102
  77.990 43.500  0.000 95
  77.980 43.500  0.000 99
  77.970 43.500  0.000 95
  77.960 43.500  0.000 90
  77.950 43.500  0.000 91
  77.940 43.500  0.000 84
  77.930 43.500  0.000 98
  77.920 43.500  0.000 103
  77.910 43.500  0.000 97
  77.900 43.500  0.000 101
  77.890 43.500  0.000 88
  77.880 43.500  0.000 69
  77.870 43.500  0.000 88
  77.860 43.500  0.000 98
  77.850 43.500  0.000 89
  77.840 43.500  0.000 112
  77.830 43.500  0.000 92
  77.820 43.500  0.000 100
  77.810 43.500  0.000 106
  77.800 43.500  0.000 99
  77.790 43.500  0.000 88
  77.780 43.500  0.000 95
  77.770 43.500  0.000 89
  77.760 43.500  0.000 92
  77.750 43.500  0.000 84
  77.740 43.500  0.000 98
  77.730 43.500  0.000 89
  77.720 43.500  0.000 82
  77.710 43.500  0.000 99
  77.700 43.500  0.000 92
  77.690 43.500  0.000 87
  77.680 43.500  0.000 92
  77.670 43.500  0.000 85
  77.660 43.500  0.000 98
  77.650 43.500  0.000 88
  77.640 43.500  0.000 69
  77.630 43.500  0.000 82
  77.620 43.500  0.000 99
  77.610 43.500  0.000 90
  77.600 43.500  0.000 103
  77.590 43.500  0.000 82
  77.580 43.500  0.000 95
  77.570 43.500  0.000 78
  77.560 43.500  0.000 100
  77.550 43.500  0.000 97
  77.540 43.500  0.000 83
  77.530 43.500  0.000 113
  77.520 43.500  0.000 77
  77.510 43.500  0.000 85
  77.500 43.500  0.000 115
  77.490 43.500  0.000 88
  77.480 43.500  0.000 97
  77.470 43.500  0.000 92
  77.460 43.500  0.000 88
  77.450 43.500  0.000 104
  77.440 43.500  0.000 86
  77.430 43.500  0.000 111
  77.420 43.500  0.000 114
  77.410 43.500  0.000 110
  77.400 43.500  0.000 112
  77.390 43.500  0.000 98
  77.380 43.500  0.000 96
  77.370 43.500  0.000 98
  77.360 43.500  0.000 89
  77.350 43.500  0.000 109
  77.340 43.500  0.000 91
  77.330 43.500  0.000 104
  77.320 43.500  0.000 116
  77.310 43.500  0.000 92
  77.300 43.500  0.000 109
  77.290 43.500  0.000 96
  77.280 43.500  0.000 109
  77.270 43.500  0.000 104
  77.260 43.500  0.000 105
  77.250 43.500  0.000 92
  77.240 43.500  0.000 98
  77.230 43.500  0.000 89
  77.220 43.500  0.000 109
  77.210 43.500  0.000 97
  77.200 43.500  0.000 99
  77.190 43.500  0.000 109
  77.180 43.500  0.000 113
  77.170 43.500  0.000 95
  77.160 43.500  0.000 96
  77.150 43.500  0.000 85
  77.140 43.500  0.000 124
  77.130 43.500  0.000 119
  77.120 43.500  0.000 103
  77.110 43.500  0.000 103
  77.100 43.500  0.000 112
  77.090 43.500  0.000 105
  77.080 43.500  0.000 88
  77.070 43.500  0.000 111
  77.060 43.500  0.000 123
  77.050 43.500  0.000 105
  77.040 43.500  0.000 100
  77.030 43.500  0.000 121
  77.020 43.500  0.000 120
  77.010 43.500  0.000 99
  77.000 43.500  0.000 96
  76.990 43.500  0.000 113
  76.980 43.500  0.000 114
  76.970 43.500  0.000 106
  76.960 43.500  0.000 107
  76.950 43.500  0.000 110
  76.940 43.500  0.000 110
  76.930 43.500  0.000 122
  76.920 43.500  0.000 106
  76.910 43.500  0.000 101
  76.900 43.500  0.000 101
  76.890 43.500  0.000 98
  76.880 43.500  0.000 107
  76.870 43.500  0.000 105
  76.860 43.500  0.000 109
  76.850 43.500  0.000 109
  76.840 43.500  0.000 113
  76.830 43.500  0.000 109
  76.820 43.500  0.000 128
  76.810 43.500  0.000 110
  76.800 43.500  0.000 125
  76.790 43.500  0.000 103
  76.780 43.500  0.000 114
  76.770 43.500  0.000 134
  76.760 43.500  0.000 124
  76.750 43.500  0.000 115
  76.740 43.500  0.000 130
  76.730 43.500  0.000 118
  76.720 43.500  0.000 100
  76.710 43.500  0.000 115
  76.700 43.500  0.000 140
  76.690 43.500  0.000 123
  76.680 43.500  0.000 121
  76.670 43.500  0.000 131
  76.660 43.500  0.000 130
  76.650 43.500  0.000 126
  76.640 43.500  0.000 113
  76.630 43.500  0.000 121
  76.620 43.500  0.000 124
  76.610 43.500  0.000 97
  76.600 43.500  0.000 113
  76.590 43.500  0.000 100
  76.580 43.500  0.000 149
  76.570 43.500  0.000 128
  76.560 43.500  0.000 130
  76.550 43.500  0.000 108
  76.540 43.500  0.000 129
  76.530 43.500  0.000 109
  76.520 43.500  0.000 132
  76.510 43.500  0.000 139
  76.500 43.500  0.000 102
  76.490 43.500  0.000 139
  76.480 43.500  0.000 115
  76.470 43.500  0.000 132
  76.460 43.500  0.000 136
  76.450 43.500  0.000 128
  76.440 43.500  0.000 128
  76.430 43.500  0.000 148
  76.420 43.500  0.000 137
  76.410 43.500  0.000 137
  76.400 43.500  0.000 126
  76.390 43.500  0.000 132
  76.380 43.500  0.000 143
  76.370 43.500  0.000 134
  76.360 43.500  0.000 132
  76.350 43.500  0.000 134
  76.340 43.500  0.000 139
  76.330 43.500  0.000 147
  76.320 43.500  0.000 143
  76.310 43.500  0.000 140
  76.300 43.500  0.000 156
  76.290 43.500  0.000 155
  76.280 43.500  0.000 150
  76.270 43.500  0.000 141
  76.260 43.500  0.000 142
  76.250 43.500  0.000 165
  76.240 43.500  0.000 118
  76.230 43.500  0.000 170
  76.220 43.500  0.000 166
  76.210 43.500  0.000 164
  76.200 43.500  0.000 165
  76.190 43.500  0.000 152
  76.180 43.500  0.000 166
  76.170 43.500  0.000 165
  76.160 43.500  0.000 162
  76.150 43.500  0.000 170
  76.140 43.500  0.000 169
  76.130 43.500  0.000 177
  76.120 43.500  0.000 176
  76.110 43.500  0.000 181
  76.100 43.500  0.000 190
  76.090 43.500  0.000 193
  76.080 43.500  0.000 181
  76.070 43.500  0.000 175
  76.060 43.500  0.000 177
  76.050 43.500  0.000 192
  76.040 43.500  0.000 217
  76.030 43.500  0.000 215
  76.020 43.500  0.000 187
  76.010 43.500  0.000 228
  76.000 43.500  0.000 211
  75.990 43.500  0.000 240
  75.980 43.500  0.000 239
  75.970 43.500  0.000 230
  75.960 43.500  0.000 247
  75.950 43.500  0.000 239
  75.940 43.500  0.000 252
  75.930 43.500  0.000 258
  75.920 43.500  0.000 254
  75.910 43.500  0.000 259
  75.900 43.500  0.000 284
  75.890 43.500  0.000 285
  75.880 43.500  0.000 302
  75.870 43.500  0.000 270
  75.860 43.500  0.000 292
  75.850 43.500  0.000 296
  75.840 43.500  0.000 329
  75.830 43.500  0.000 286
  75.820 43.500  0.000 313
  75.810 43.500  0.000 308
  75.800 43.500  0.000 343
  75.790 43.500  0.000 357
  75.780 43.500  0.000 339
  75.770 43.500  0.000 376
  75.760 43.500  0.000 386
  75.750 43.500  0.000 372
  75.740 43.500  0.000 349
  75.730 43.500  0.000 356
  75.720 43.500  0.000 385
  75.710 43.500  0.000 386
  75.700 43.500  0.000 391
  75.690 43.500  0.000 377
  75.680 43.500  0.000 367
  75.670 43.500  0.000 392
  75.660 43.500  0.000 342
  75.650 43.500  0.000 366
  75.640 43.500  0.000 333
  75.630 43.500  0.000 384
  75.620 43.500  0.000 341
  75.610 43.500  0.000 352
  75.600 43.500  0.000 341
  75.590 43.500  0.000 403
  75.580 43.500  0.000 353
  75.570 43.500  0.000 360
  75.560 43.500  0.000 359
  75.550 43.500  0.000 331
  75.540 43.500  0.000 354
  75.530 43.500  0.000 342
  75.520 43.500  0.000 332
  75.510 43.500  0.000 330
  75.500 43.500  0.000 351
  75.490 43.500  0.000 293
  75.480 43.500  0.000 337
  75.470 43.500  0.000 286
  75.460 43.500  0.000 323
  75.450 43.500  0.000 329
  75.440 43.500  0.000 332
  75.430 43.500  0.000 318
  75.420 43.500  0.000 320
  75.410 43.500  0.000 320
  75.400 43.500  0.000 328
  75.390 43.500  0.000 295
  75.380 43.500  0.000 312
  75.370 43.500  0.000 319
  75.360 43.500  0.000 321
  75.350 43.500  0.000 329
  75.340 43.500  0.000 317
  75.330 43.500  0.000 302
  75.320 43.500  0.000 379
  75.310 43.500  0.000 344
  75.300 43.500  0.000 361
  75.290 43.500  0.000 351
  75.280 43.500  0.000 383
  75.270 43.500  0.000 412
  75.260 43.500  0.000 431
  75.250 43.500  0.000 390
  75.240 43.500  0.000 356
  75.230 43.500  0.000 437
  75.220 43.500  0.000 366
  75.210 43.500  0.000 408
  75.200 43.500  0.000 444
  75.190 43.500  0.000 498
  75.180 43.500  0.000 442
  75.170 43.500  0.000 518
  75.160 43.500  0.000 497
  75.150 43.500  0.000 575
  75.140 43.500  0.000 512
  75.130 43.500  0.000 517
  75.120 43.500  0.000 521
  75.110 43.500  0.000 524
  75.100 43.500  0.000 661
  75.090 43.500  0.000 652
  75.080 43.500  0.000 642
  75.070 43.500  0.000 621
  75.060 43.500  0.000 669
  75.050 43.500  0.000 664
  75.040 43.500  0.000 651
  75.030 43.500  0.000 717
  75.020 43.500  0.000 705
  75.010 43.500  0.000 686
  75.000 43.500  0.000 663
  74.990 43.500  0.000 700
  74.980 43.500  0.000 776
  74.970 43.500  0.000 760
  74.960 43.500  0.000 722
  74.950 43.500  0.000 699
  74.940 43.500  0.000 763
  74.930 43.500  0.000 760
  74.920 43.500  0.000 733
  74.910 43.500  0.000 784
  74.900 43.500  0.000 771
  74.890 43.500  0.000 777
  74.880 43.500  0.000 775
  74.870 43.500  0.000 759
  74.860 43.500  0.000 818
  74.850 43.500  0.000 761
  74.840 43.500  0.000 714
  74.830 43.500  0.000 656
  74.820 43.500  0.000 711
  74.810 43.500  0.000 703
  74.800 43.500  0.000 722
  74.790 43.500  0.000 679
  74.780 43.500  0.000 727
  74.770 43.500  0.000 755
  74.760 43.500  0.000 751
  74.750 43.500  0.000 716
  74.740 43.500  0.000 745
  74.730 43.500  0.000 757
  74.720 43.500  0.000 717
  74.710 43.500  0.000 725
  74.700 43.500  0.000 732
  74.690 43.500  0.000 709
  74.680 43.500  0.000 691
  74.670 43.500  0.000 715
  74.660 43.500  0.000 745
  74.650 43.500  0.000 759
  74.640 43.500  0.000 762
  74.630 43.500  0.000 696
  74.620 43.500  0.000 826
  74.610 43.500  0.000 804
  74.600 43.500  0.000 826
  74.590 43.500  0.000 809
  74.580 43.500  0.000 879
  74.570 43.500  0.000 895
  74.560 43.500  0.000 889
  74.550 43.500  0.000 823
  74.540 43.500  0.000 922
  74.530 43.500  0.000 900
  74.520 43.500  0.000 920
  74.510 43.500  0.000 924
  74.500 43.500  0.000 948
  74.490 43.500  0.000 955
  74.480 43.500  0.000 1068
  74.470 43.500  0.000 1070
  74.460 43.500  0.000 1050
  74.450 43.500  0.000 1016
  74.440 43.500  0.000 1106
  74.430 43.500  0.000 1116
  74.420 43.500  0.000 1193
  74.410 43.500  0.000 1179
  74.400 43.500  0.000 1164
  74.390 43.500  0.000 1141
  74.380 43.500  0.000 1260
  74.370 43.500  0.000 1209
  74.360 43.500  0.000 1249
  74.350 43.500  0.000 1369
  74.340 43.500  0.000 1236
  74.330 43.500  0.000 1335
  74.320 43.500  0.000 1323
  74.310 43.500  0.000 1343
  74.300 43.500  0.000 1336
  74.290 43.500  0.000 1445
  74.280 43.500  0.000 1382
  74.270 43.500  0.000 1385
  74.260 43.500  0.000 1392
  74.250 43.500  0.000 1442
  74.240 43.500  0.000 1384
  74.230 43.500  0.000 1291
  74.220 43.500  0.000 1292
  74.210 43.500  0.000 1340
  74.200 43.500  0.000 1237
  74.190 43.500  0.000 1233
  74.180 43.500  0.000 1237
  74.170 43.500  0.000 1272
  74.160 43.500  0.000 1235
  74.150 43.500  0.000 1181
  74.140 43.500  0.000 1222
  74.130 43.500  0.000 1136
  74.120 43.500  0.000 1181
  74.110 43.500  0.000 1083
  74.100 43.500  0.000 1066
  74.090 43.500  0.000 1068
  74.080 43.500  0.000 1012
  74.070 43.500  0.000 965
  74.060 43.500  0.000 926
  74.050 43.500  0.000 929
  74.040 43.500  0.000 927
  74.030 43.500  0.000 934
  74.020 43.500  0.000 839
  74.010 43.500  0.000 881
  74.000 43.500  0.000 837
  73.990 43.500  0.000 819
  73.980 43.500  0.000 753
  73.970 43.500  0.000 699
  73.960 43.500  0.000 753
  73.950 43.500  0.000 652
  73.940 43.500  0.000 669
  73.930 43.500  0.000 622
  73.920 43.500  0.000 684
  73.910 43.500  0.000 594
  73.900 43.500  0.000 606
  73.890 43.500  0.000 564
  73.880 43.500  0.000 567
  73.870 43.500  0.000 582
  73.860 43.500  0.000 540
  73.850 43.500  0.000 561
  73.840 43.500  0.000 522
  73.830 43.500  0.000 508
  73.820 43.500  0.000 498
  73.810 43.500  0.000 465
  73.800 43.500  0.000 463
  73.790 43.500  0.000 468
  73.780 43.500  0.000 432
  73.770 43.500  0.000 371
  73.760 43.500  0.000 409
  73.750 43.500  0.000 416
  73.740 43.500  0.000 403
  73.730 43.500  0.000 382
  73.720 43.500  0.000 385
  73.710 43.500  0.000 367
  73.700 43.500  0.000 356
  73.690 43.500  0.000 305
  73.680 43.500  0.000 291
  73.670 43.500  0.000 316
  73.660 43.500  0.000 281
  73.650 43.500  0.000 348
  73.640 43.500  0.000 307
  73.630 43.500  0.000 284
  73.620 43.500  0.000 289
  73.610 43.500  0.000 225
  73.600 43.500  0.000 269
  73.590 43.500  0.000 221
  73.580 43.500  0.000 250
  73.570 43.500  0.000 222
  73.560 43.500  0.000 243
  73.550 43.500  0.000 223
  73.540 43.500  0.000 242
  73.530 43.500  0.000 215
  73.520 43.500  0.000 209
  73.510 43.500  0.000 203
  73.500 43.500  0.000 208
  73.490 43.500  0.000 200
  73.480 43.500  0.000 183
  73.470 43.500  0.000 219
  73.460 43.500  0.000 210
  73.450 43.500  0.000 195
  73.440 43.500  0.000 201
  73.430 43.500  0.000 228
  73.420 43.500  0.000 207
  73.410 43.500  0.000 199
  73.400 43.500  0.000 215
  73.390 43.500  0.000 207
  73.380 43.500  0.000 186
  73.370 43.500  0.000 185
  73.360 43.500  0.000 175
  73.350 43.500  0.000 215
  73.340 43.500  0.000 214
  73.330 43.500  0.000 214
  73.320 43.500  0.000 228
  73.310 43.500  0.000 217
  73.300 43.500  0.000 256
  73.290 43.500  0.000 235
  73.280 43.500  0.000 257
  73.270 43.500  0.000 237
  73.260 43.500  0.000 247
  73.250 43.500  0.000 275
  73.240 43.500  0.000 291
  73.230 43.500  0.000 234
  73.220 43.500  0.000 255
  73.210 43.500  0.000 300
  73.200 43.500  0.000 296
  73.190 43.500  0.000 281
  73.180 43.500  0.000 317
  73.170 43.500  0.000 291
  73.160 43.500  0.000 291
  73.150 43.500  0.000 333
  73.140 43.500  0.000 356
  73.130 43.500  0.000 369
  73.120 43.500  0.000 405
  73.110 43.500  0.000 343
  73.100 43.500  0.000 377
  73.090 43.500  0.000 449
  73.080 43.500  0.000 408
  73.070 43.500  0.000 400
  73.060 43.500  0.000 435
  73.050 43.500  0.000 422
  73.040 43.500  0.000 468
  73.030 43.500  0.000 444
  73.020 43.500  0.000 501
  73.010 43.500  0.000 457
  73.000 43.500  0.000 523
  72.990 43.500  0.000 500
  72.980 43.500  0.000 576
  72.970 43.500  0.000 570
  72.960 43.500  0.000 507
  72.950 43.500  0.000 581
  72.940 43.500  0.000 589
  72.930 43.500  0.000 666
  72.920 43.500  0.000 682
  72.910 43.500  0.000 667
  72.900 43.500  0.000 713
  72.890 43.500  0.000 689
  72.880 43.500  0.000 767
  72.870 43.500  0.000 764
  72.860 43.500  0.000 876
  72.850 43.500  0.000 747
  72.840 43.500  0.000 879
  72.830 43.500  0.000 872
  72.820 43.500  0.000 886
  72.810 43.500  0.000 944
  72.800 43.500  0.000 900
  72.790 43.500  0.000 905
  72.780 43.500  0.000 983
  72.770 43.500  0.000 978
  72.760 43.500  0.000 1007
  72.750 43.500  0.000 995
  72.740 43.500  0.000 1076
  72.730 43.500  0.000 1132
  72.720 43.500  0.000 1137
  72.710 43.500  0.000 1144
  72.700 43.500  0.000 1208
  72.690 43.500  0.000 1209
  72.680 43.500  0.000 1255
  72.670 43.500  0.000 1290
  72.660 43.500  0.000 1303
  72.650 43.500  0.000 1379
  72.640 43.500  0.000 1337
  72.630 43.500  0.000 1404
  72.620 43.500  0.000 1399
  72.610 43.500  0.000 1543
  72.600 43.500  0.000 1471
  72.590 43.500  0.000 1459
  72.580 43.500  0.000 1479
  72.570 43.500  0.000 1455
  72.560 43.500  0.000 1503
  72.550 43.500  0.000 1596
  72.540 43.500  0.000 1532
  72.530 43.500  0.000 1484
  72.520 43.500  0.000 1606
  72.510 43.500  0.000 1581
  72.500 43.500  0.000 1625
  72.490 43.500  0.000 1546
  72.480 43.500  0.000 1611
  72.470 43.500  0.000 1643
  72.460 43.500  0.000 1563
  72.450 43.500  0.000 1689
  72.440 43.500  0.000 1641
  72.430 43.500  0.000 1677
  72.420 43.500  0.000 1593
  72.410 43.500  0.000 1717
  72.400 43.500  0.000 1579
  72.390 43.500  0.000 1571
  72.380 43.500  0.000 1570
  72.370 43.500  0.000 1523
  72.360 43.500  0.000 1540
  72.350 43.500  0.000 1621
  72.340 43.500  0.000 1486
  72.330 43.500  0.000 1408
  72.320 43.500  0.000 1463
  72.310 43.500  0.000 1386
  72.300 43.500  0.000 1363
  72.290 43.500  0.000 1334
  72.280 43.500  0.000 1391
  72.270 43.500  0.000 1221
  72.260 43.500  0.000 1144
  72.250 43.500  0.000 1255
  72.240 43.500  0.000 1169
  72.230 43.500  0.000 1177
  72.220 43.500  0.000 1101
  72.210 43.500  0.000 1055
  72.200 43.500  0.000 926
  72.190 43.500  0.000 977
  72.180 43.500  0.000 961
  72.170 43.500  0.000 930
  72.160 43.500  0.000 969
  72.150 43.500  0.000 841
  72.140 43.500  0.000 750
  72.130 43.500  0.000 814
  72.120 43.500  0.000 733
  72.110 43.500  0.000 747
  72.100 43.500  0.000 709
  72.090 43.500  0.000 695
  72.080 43.500  0.000 703
  72.070 43.500  0.000 670
  72.060 43.500  0.000 602
  72.050 43.500  0.000 569
  72.040 43.500  0.000 595
  72.030 43.500  0.000 535
  72.020 43.500  0.000 533
  72.010 43.500  0.000 483
  72.000 43.500  0.000 463
  71.990 43.500  0.000 434
  71.980 43.500  0.000 432
  71.970 43.500  0.000 413
  71.960 43.500  0.000 403
  71.950 43.500  0.000 372
  71.940 43.500  0.000 399
  71.930 43.500  0.000 355
  71.920 43.500  0.000 318
  71.910 43.500  0.000 326
  71.900 43.500  0.000 331
  71.890 43.500  0.000 320
  71.880 43.500  0.000 295
  71.870 43.500  0.000 268
  71.860 43.500  0.000 278
  71.850 43.500  0.000 252
  71.840 43.500  0.000 233
  71.830 43.500  0.000 213
  71.820 43.500  0.000 220
  71.810 43.500  0.000 229
  71.800 43.500  0.000 221
  71.790 43.500  0.000 209
  71.780 43.500  0.000 167
  71.770 43.500  0.000 179
  71.760 43.500  0.000 159
  71.750 43.500  0.000 158
  71.740 43.500  0.000 161
  71.730 43.500  0.000 163
  71.720 43.500  0.000 155
  71.710 43.500  0.000 142
  71.700 43.500  0.000 149
  71.690 43.500  0.000 130
  71.680 43.500  0.000 122
  71.670 43.500  0.000 131
  71.660 43.500  0.000 115
  71.650 43.500  0.000 102
  71.640 43.500  0.000 95
  71.630 43.500  0.000 105
  71.620 43.500  0.000 94
  71.610 43.500  0.000 105
  71.600 43.500  0.000 74
  71.590 43.500  0.000 91
  71.580 43.500  0.000 72
  71.570 43.500  0.000 89
  71.560 43.500  0.000 93
  71.550 43.500  0.000 88
  71.540 43.500  0.000 88
  71.530 43.500  0.000 79
  71.520 43.500  0.000 86
  71.510 43.500  0.000 82
  71.500 43.500  0.000 75
  71.490 43.500  0.000 73
  71.480 43.500  0.000 89
  71.470 43.500  0.000 89
  71.460 43.500  0.000 81
  71.450 43.500  0.000 60
  71.440 43.500  0.000 79
  71.430 43.500  0.000 75
  71.420 43.500  0.000 72
  71.410 43.500  0.000 69
  71.400 43.500  0.000 78
  71.390 43.500  0.000 59
  71.380 43.500  0.000 66
  71.370 43.500  0.000 65
  71.360 43.500  0.000 57
  71.350 43.500  0.000 68
  71.340 43.500  0.000 59
  71.330 43.500  0.000 69
  71.320 43.500  0.000 54
  71.310 43.500  0.000 59
  71.300 43.500  0.000 83
  71.290 43.500  0.000 69
  71.280 43.500  0.000 57
  71.270 43.500  0.000 62
  71.260 43.500  0.000 67
  71.250 43.500  0.000 58
  71.240 43.500  0.000 65
  71.230 43.500  0.000 49
  71.220 43.500  0.000 66
  71.210 43.500  0.000 66
  71.200 43.500  0.000 45
  71.190 43.500  0.000 49
  71.180 43.500  0.000 55
  71.170 43.500  0.000 57
  71.160 43.500  0.000 60
  71.150 43.500  0.000 54
  71.140 43.500  0.000 64
  71.130 43.500  0.000 54
  71.120 43.500  0.000 64
  71.110 43.500  0.000 65
  71.100 43.500  0.000 66
  71.090 43.500  0.000 57
  71.080 43.500  0.000 69
  71.070 43.500  0.000 48
  71.060 43.500  0.000 57
  71.050 43.500  0.000 68
  71.040 43.500  0.000 47
  71.030 43.500  0.000 46
  71.020 43.500  0.000 66
  71.010 43.500  0.000 57
  71.000 43.500  0.000 61
  70.990 43.500  0.000 51
  70.980 43.500  0.000 62
  70.970 43.500  0.000 58
  70.960 43.500  0.000 67
  70.950 43.500  0.000 48
  70.940 43.500  0.000 67
  70.930 43.500  0.000 60
  70.920 43.500  0.000 48
  70.910 43.500  0.000 59
  70.900 43.500  0.000 48
  70.890 43.500  0.000 55
  70.880 43.500  0.000 53
  70.870 43.500  0.000 63
  70.860 43.500  0.000 54
  70.850 43.500  0.000 55
  70.840 43.500  0.000 62
  70.830 43.500  0.000 70
  70.820 43.500  0.000 66
  70.810 43.500  0.000 57
  70.800 43.500  0.000 74
  70.790 43.500  0.000 56
  70.780 43.500  0.000 60
  70.770 43.500  0.000 65
  70.760 43.500  0.000 67
  70.750 43.500  0.000 60
  70.740 43.500  0.000 67
  70.730 43.500  0.000 71
  70.720 43.500  0.000 70
  70.710 43.500  0.000 78
  70.700 43.500  0.000 68
  70.690 43.500  0.000 60
  70.680 43.500  0.000 69
  70.670 43.500  0.000 65
  70.660 43.500  0.000 61
  70.650 43.500  0.000 82
  70.640 43.500  0.000 78
  70.630 43.500  0.000 74
  70.620 43.500  0.000 73
  70.610 43.500  0.000 86
  70.600 43.500  0.000 79
  70.590 43.500  0.000 74
  70.580 43.500  0.000 91
  70.570 43.500  0.000 82
  70.560 43.500  0.000 80
  70.550 43.500  0.000 77
  70.540 43.500  0.000 85
  70.530 43.500  0.000 88
  70.520 43.500  0.000 68
  70.510 43.500  0.000 97
  70.500 43.500  0.000 91
  70.490 43.500  0.000 89
  70.480 43.500  0.000 72
  70.470 43.500  0.000 98
  70.460 43.500  0.000 90
  70.450 43.500  0.000 92
  70.440 43.500  0.000 94
  70.430 43.500  0.000 98
  70.420 43.500  0.000 95
  70.410 43.500  0.000 106
  70.400 43.500  0.000 89
  70.390 43.500  0.000 104
  70.380 43.500  0.000 100
  70.370 43.500  0.000 107
  70.360 43.500  0.000 108
  70.350 43.500  0.000 102
  70.340 43.500  0.000 86
  70.330 43.500  0.000 106
  70.320 43.500  0.000 100
  70.310 43.500  0.000 91
  70.300 43.500  0.000 96
  70.290 43.500  0.000 97
  70.280 43.500  0.000 104
  70.270 43.500  0.000 103
  70.260 43.500  0.000 95
  70.250 43.500  0.000 114
  70.240 43.500  0.000 107
  70.230 43.500  0.000 107
  70.220 43.500  0.000 106
  70.210 43.500  0.000 113
  70.200 43.500  0.000 118
  70.190 43.500  0.000 120
  70.180 43.500  0.000 98
  70.170 43.500  0.000 96
  70.160 43.500  0.000 124
  70.150 43.500  0.000 120
  70.140 43.500  0.000 111
  70.130 43.500  0.000 104
  70.120 43.500  0.000 114
  70.110 43.500  0.000 109
  70.100 43.500  0.000 110
  70.090 43.500  0.000 101
  70.080 43.500  0.000 121
  70.070 43.500  0.000 109
  70.060 43.500  0.000 105
  70.050 43.500  0.000 126
  70.040 43.500  0.000 107
  70.030 43.500  0.000 123
  70.020 43.500  0.000 124
  70.010 43.500  0.000 112
  70.000 43.500  0.000 91
  69.990 43.500  0.000 110
  69.980 43.500  0.000 117
  69.970 43.500  0.000 109
  69.960 43.500  0.000 100
  69.950 43.500  0.000 113
  69.940 43.500  0.000 120
  69.930 43.500  0.000 102
  69.920 43.500  0.000 99
  69.910 43.500  0.000 109
  69.900 43.500  0.000 106
  69.890 43.500  0.000 102
  69.880 43.500  0.000 118
  69.870 43.500  0.000 119
  69.860 43.500  0.000 95
  69.850 43.500  0.000 106
  69.840 43.500  0.000 111
  69.830 43.500  0.000 130
  69.820 43.500  0.000 103
  69.810 43.500  0.000 112
  69.800 43.500  0.000 92
  69.790 43.500  0.000 109
  69.780 43.500  0.000 125
  69.770 43.500  0.000 123
  69.760 43.500  0.000 117
  69.750 43.500  0.000 119
  69.740 43.500  0.000 123
  69.730 43.500  0.000 101
  69.720 43.500  0.000 110
  69.710 43.500  0.000 90
  69.700 43.500  0.000 119
  69.690 43.500  0.000 112
  69.680 43.500  0.000 128
  69.670 43.500  0.000 110
  69.660 43.500  0.000 115
  69.650 43.500  0.000 105
  69.640 43.500  0.000 114
  69.630 43.500  0.000 111
  69.620 43.500  0.000 102
  69.610 43.500  0.000 80
  69.600 43.500  0.000 109
  69.590 43.500  0.000 113
  69.580 43.500  0.000 102
  69.570 43.500  0.000 86
  69.560 43.500  0.000 94
  69.550 43.500  0.000 117
  69.540 43.500  0.000 101
  69.530 43.500  0.000 96
  69.520 43.500  0.000 100
  69.510 43.500  0.000 109
  69.500 43.500  0.000 112
  69.490 43.500  0.000 93
  69.480 43.500  0.000 89
  69.470 43.500  0.000 100
  69.460 43.500  0.000 86
  69.450 43.500  0.000 100
  69.440 43.500  0.000 94
  69.430 43.500  0.000 88
  69.420 43.500  0.000 110
  69.410 43.500  0.000 93
  69.400 43.500  0.000 94
  69.390 43.500  0.000 90
  69.380 43.500  0.000 104
  69.370 43.500  0.000 101
  69.360 43.500  0.000 87
  69.350 43.500  0.000 87
  69.340 43.500  0.000 94
  69.330 43.500  0.000 78
  69.320 43.500  0.000 96
  69.310 43.500  0.000 64
  69.300 43.500  0.000 70
  69.290 43.500  0.000 93
  69.280 43.500  0.000 74
  69.270 43.500  0.000 59
  69.260 43.500  0.000 86
  69.250 43.500  0.000 70
  69.240 43.500  0.000 81
  69.230 43.500  0.000 81
  69.220 43.500  0.000 76
  69.210 43.500  0.000 86
  69.200 43.500  0.000 86
  69.190 43.500  0.000 63
  69.180 43.500  0.000 90
  69.170 43.500  0.000 83
  69.160 43.500  0.000 67
  69.150 43.500  0.000 65
  69.140 43.500  0.000 70
  69.130 43.500  0.000 83
  69.120 43.500  0.000 84
  69.110 43.500  0.000 70
  69.100 43.500  0.000 75
  69.090 43.500  0.000 81
  69.080 43.500  0.000 81
  69.070 43.500  0.000 70
  69.060 43.500  0.000 67
  69.050 43.500  0.000 57
  69.040 43.500  0.000 72
  69.030 43.500  0.000 70
  69.020 43.500  0.000 66
  69.010 43.500  0.000 63
  69.000 43.500  0.000 56
  68.990 43.500  0.000 64
  68.980 43.500  0.000 67
  68.970 43.500  0.000 61
  68.960 43.500  0.000 71
  68.950 43.500  0.000 63
  68.940 43.500  0.000 69
  68.930 43.500  0.000 57
  68.920 43.500  0.000 76
  68.910 43.500  0.000 63
  68.900 43.500  0.000 60
  68.890 43.500  0.000 72
  68.880 43.500  0.000 60
  68.870 43.500  0.000 67
  68.860 43.500  0.000 64
  68.850 43.500  0.000 62
  68.840 43.500  0.000 62
  68.830 43.500  0.000 57
  68.820 43.500  0.000 67
  68.810 43.500  0.000 65
  68.800 43.500  0.000 69
  68.790 43.500  0.000 65
  68.780 43.500  0.000 70
  68.770 43.500  0.000 59
  68.760 43.500  0.000 66
  68.750 43.500  0.000 78
  68.740 43.500  0.000 64
  68.730 43.500  0.000 53
  68.720 43.500  0.000 60
  68.710 43.500  0.000 78
  68.700 43.500  0.000 64
  68.690 43.500  0.000 56
  68.680 43.500  0.000 63
  68.670 43.500  0.000 56
  68.660 43.500  0.000 61
  68.650 43.500  0.000 65
  68.640 43.500  0.000 61
  68.630 43.500  0.000 70
  68.620 43.500  0.000 55
  68.610 43.500  0.000 63
  68.600 43.500  0.000 48
  68.590 43.500  0.000 60
  68.580 43.500  0.000 65
  68.570 43.500  0.000 55
  68.560 43.500  0.000 64
  68.550 43.500  0.000 63
  68.540 43.500  0.000 54
  68.530 43.500  0.000 47
  68.520 43.500  0.000 48
  68.510 43.500  0.000 58
  68.500 43.500  0.000 55
  68.490 43.500  0.000 60
  68.480 43.500  0.000 50
  68.470 43.500  0.000 61
  68.460 43.500  0.000 45
  68.450 43.500  0.000 53
  68.440 43.500  0.000 52
  68.430 43.500  0.000 55
  68.420 43.500  0.000 53
  68.410 43.500  0.000 56
  68.400 43.500  0.000 56
  68.390 43.500  0.000 62
  68.380 43.500  0.000 75
  68.370 43.500  0.000 63
  68.360 43.500  0.000 69
  68.350 43.500  0.000 54
  68.340 43.500  0.000 71
  68.330 43.500  0.000 65
  68.320 43.500  0.000 58
  68.310 43.500  0.000 49
  68.300 43.500  0.000 52
  68.290 43.500  0.000 57
  68.280 43.500  0.000 73
  68.270 43.500  0.000 54
  68.260 43.500  0.000 69
  68.250 43.500  0.000 49
  68.240 43.500  0.000 52
  68.230 43.500  0.000 56
  68.220 43.500  0.000 59
  68.210 43.500  0.000 63
  68.200 43.500  0.000 65
  68.190 43.500  0.000 54
  68.180 43.500  0.000 45
  68.170 43.500  0.000 52
  68.160 43.500  0.000 49
  68.150 43.500  0.000 59
  68.140 43.500  0.000 65
  68.130 43.500  0.000 59
  68.120 43.500  0.000 68
  68.110 43.500  0.000 59
  68.100 43.500  0.000 56
  68.090 43.500  0.000 65
  68.080 43.500  0.000 68
  68.070 43.500  0.000 56
  68.060 43.500  0.000 47
  68.050 43.500  0.000 60
  68.040 43.500  0.000 59
  68.030 43.500  0.000 71
  68.020 43.500  0.000 69
  68.010 43.500  0.000 61
  68.000 43.500  0.000 75
  67.990 43.500  0.000 66
  67.980 43.500  0.000 56
  67.970 43.500  0.000 67
  67.960 43.500  0.000 53
  67.950 43.500  0.000 68
  67.940 43.500  0.000 60
  67.930 43.500  0.000 72
  67.920 43.500  0.000 79
  67.910 43.500  0.000 63
  67.900 43.500  0.000 66
  67.890 43.500  0.000 62
  67.880 43.500  0.000 66
  67.870 43.500  0.000 70
  67.860 43.500  0.000 62
  67.850 43.500  0.000 81
  67.840 43.500  0.000 56
  67.830 43.500  0.000 76
  67.820 43.500  0.000 68
  67.810 43.500  0.000 68
  67.800 43.500  0.000 75
  67.790 43.500  0.000 71
  67.780 43.500  0.000 73
  67.770 43.500  0.000 68
  67.760 43.500  0.000 69
  67.750 43.500  0.000 73
  67.740 43.500  0.000 79
  67.730 43.500  0.000 76
  67.720 43.500  0.000 78
  67.710 43.500  0.000 87
  67.700 43.500  0.000 64
  67.690 43.500  0.000 111
  67.680 43.500  0.000 89
  67.670 43.500  0.000 88
  67.660 43.500  0.000 88
  67.650 43.500  0.000 94
  67.640 43.500  0.000 87
  67.630 43.500  0.000 78
  67.620 43.500  0.000 76
  67.610 43.500  0.000 75
  67.600 43.500  0.000 85
  67.590 43.500  0.000 82
  67.580 43.500  0.000 91
  67.570 43.500  0.000 81
  67.560 43.500  0.000 78
  67.550 43.500  0.000 84
  67.540 43.500  0.000 86
  67.530 43.500  0.000 100
  67.520 43.500  0.000 89
  67.510 43.500  0.000 81
  67.500 43.500  0.000 77
  67.490 43.500  0.000 93
  67.480 43.500  0.000 92
  67.470 43.500  0.000 97
  67.460 43.500  0.000 97
  67.450 43.500  0.000 110
  67.440 43.500  0.000 91
  67.430 43.500  0.000 78
  67.420 43.500  0.000 77
  67.410 43.500  0.000 100
  67.400 43.500  0.000 100
  67.390 43.500  0.000 84
  67.380 43.500  0.000 103
  67.370 43.500  0.000 102
  67.360 43.500  0.000 67
  67.350 43.500  0.000 104
  67.340 43.500  0.000 105
  67.330 43.500  0.000 80
  67.320 43.500  0.000 96
  67.310 43.500  0.000 88
  67.300 43.500  0.000 92
  67.290 43.500  0.000 111
  67.280 43.500  0.000 80
  67.270 43.500  0.000 93
  67.260 43.500  0.000 85
  67.250 43.500  0.000 94
  67.240 43.500  0.000 83
  67.230 43.500  0.000 77
  67.220 43.500  0.000 100
  67.210 43.500  0.000 94
  67.200 43.500  0.000 98
  67.190 43.500  0.000 107
  67.180 43.500  0.000 94
  67.170 43.500  0.000 101
  67.160 43.500  0.000 84
  67.150 43.500  0.000 103
  67.140 43.500  0.000 115
  67.130 43.500  0.000 106
  67.120 43.500  0.000 118
  67.110 43.500  0.000 99
  67.100 43.500  0.000 87
  67.090 43.500  0.000 103
  67.080 43.500  0.000 101
  67.070 43.500  0.000 108
  67.060 43.500  0.000 111
  67.050 43.500  0.000 108
  67.040 43.500  0.000 97
  67.030 43.500  0.000 93
  67.020 43.500  0.000 108
  67.010 43.500  0.000 117
  67.000 43.500  0.000 112
  66.990 43.500  0.000 103
  66.980 43.500  0.000 111
  66.970 43.500  0.000 102
  66.960 43.500  0.000 97
  66.950 43.500  0.000 114
  66.940 43.500  0.000 103
  66.930 43.500  0.000 98
  66.920 43.500  0.000 129
  66.910 43.500  0.000 112
  66.900 43.500  0.000 132
  66.890 43.500  0.000 113
  66.880 43.500  0.000 120
  66.870 43.500  0.000 112
  66.860 43.500  0.000 115
  66.850 43.500  0.000 123
  66.840 43.500  0.000 94
  66.830 43.500  0.000 119
  66.820 43.500  0.000 120
  66.810 43.500  0.000 141
  66.800 43.500  0.000 122
  66.790 43.500  0.000 123
  66.780 43.500  0.000 116
  66.770 43.500  0.000 113
  66.760 43.500  0.000 118
  66.750 43.500  0.000 109
  66.740 43.500  0.000 115
  66.730 43.500  0.000 132
  66.720 43.500  0.000 134
  66.710 43.500  0.000 130
  66.700 43.500  0.000 127
  66.690 43.500  0.000 133
  66.680 43.500  0.000 113
  66.670 43.500  0.000 114
  66.660 43.500  0.000 146
  66.650 43.500  0.000 139
  66.640 43.500  0.000 108
  66.630 43.500  0.000 135
  66.620 43.500  0.000 143
  66.610 43.500  0.000 121
  66.600 43.500  0.000 112
  66.590 43.500  0.000 119
  66.580 43.500  0.000 131
  66.570 43.500  0.000 138
  66.560 43.500  0.000 113
  66.550 43.500  0.000 131
  66.540 43.500  0.000 137
  66.530 43.500  0.000 149
  66.520 43.500  0.000 158
  66.510 43.500  0.000 139
  66.500 43.500  0.000 143
  66.490 43.500  0.000 133
  66.480 43.500  0.000 151
  66.470 43.500  0.000 149
  66.460 43.500  0.000 141
  66.450 43.500  0.000 150
  66.440 43.500  0.000 145
  66.430 43.500  0.000 134
  66.420 43.500  0.000 156
  66.410 43.500  0.000 154
  66.400 43.500  0.000 138
  66.390 43.500  0.000 150
  66.380 43.500  0.000 135
  66.370 43.500  0.000 160
  66.360 43.500  0.000 141
  66.350 43.500  0.000 150
  66.340 43.500  0.000 129
  66.330 43.500  0.000 154
  66.320 43.500  0.000 141
  66.310 43.500  0.000 140
  66.300 43.500  0.000 153
  66.290 43.500  0.000 144
  66.280 43.500  0.000 141
  66.270 43.500  0.000 161
  66.260 43.500  0.000 153
  66.250 43.500  0.000 148
  66.240 43.500  0.000 126
  66.230 43.500  0.000 147
  66.220 43.500  0.000 144
  66.210 43.500  0.000 155
  66.200 43.500  0.000 141
  66.190 43.500  0.000 141
  66.180 43.500  0.000 147
  66.170 43.500  0.000 144
  66.160 43.500  0.000 130
  66.150 43.500  0.000 165
  66.140 43.500  0.000 132
  66.130 43.500  0.000 143
  66.120 43.500  0.000 163
  66.110 43.500  0.000 131
  66.100 43.500  0.000 145
  66.090 43.500  0.000 144
  66.080 43.500  0.000 158
  66.070 43.500  0.000 153
  66.060 43.500  0.000 163
  66.050 43.500  0.000 153
  66.040 43.500  0.000 183
  66.030 43.500  0.000 149
  66.020 43.500  0.000 138
  66.010 43.500  0.000 148
  66.000 43.500  0.000 151
  65.990 43.500  0.000 146
  65.980 43.500  0.000 148
  65.970 43.500  0.000 116
  65.960 43.500  0.000 128
  65.950 43.500  0.000 143
  65.940 43.500  0.000 158
  65.930 43.500  0.000 143
  65.920 43.500  0.000 169
  65.910 43.500  0.000 146
  65.900 43.500  0.000 149
  65.890 43.500  0.000 119
  65.880 43.500  0.000 118
  65.870 43.500  0.000 115
  65.860 43.500  0.000 149
  65.850 43.500  0.000 121
  65.840 43.500  0.000 131
  65.830 43.500  0.000 139
  65.820 43.500  0.000 114
  65.810 43.500  0.000 153
  65.800 43.500  0.000 136
  65.790 43.500  0.000 107
  65.780 43.500  0.000 137
  65.770 43.500  0.000 114
  65.760 43.500  0.000 112
  65.750 43.500  0.000 107
  65.740 43.500  0.000 160
  65.730 43.500  0.000 115
  65.720 43.500  0.000 122
  65.710 43.500  0.000 128
  65.700 43.500  0.000 116
  65.690 43.500  0.000 103
  65.680 43.500  0.000 119
  65.670 43.500  0.000 101
  65.660 43.500  0.000 103
  65.650 43.500  0.000 101
  65.640 43.500  0.000 115
  65.630 43.500  0.000 117
  65.620 43.500  0.000 99
  65.610 43.500  0.000 105
  65.600 43.500  0.000 100
  65.590 43.500  0.000 107
  65.580 43.500  0.000 121
  65.570 43.500  0.000 107
  65.560 43.500  0.000 112
  65.550 43.500  0.000 114
  65.540 43.500  0.000 88
  65.530 43.500  0.000 81
  65.520 43.500  0.000 98
  65.510 43.500  0.000 82
  65.500 43.500  0.000 67
  65.490 43.500  0.000 94
  65.480 43.500  0.000 91
  65.470 43.500  0.000 89
  65.460 43.500  0.000 87
  65.450 43.500  0.000 78
  65.440 43.500  0.000 66
  65.430 43.500  0.000 91
  65.420 43.500  0.000 72
  65.410 43.500  0.000 90
  65.400 43.500  0.000 80
  65.390 43.500  0.000 84
  65.380 43.500  0.000 67
  65.370 43.500  0.000 80
  65.360 43.500  0.000 81
  65.350 43.500  0.000 65
  65.340 43.500  0.000 49
  65.330 43.500  0.000 63
  65.320 43.500  0.000 62
  65.310 43.500  0.000 66
  65.300 43.500  0.000 72
  65.290 43.500  0.000 61
  65.280 43.500  0.000 51
  65.270 43.500  0.000 63
  65.260 43.500  0.000 56
  65.250 43.500  0.000 46
  65.240 43.500  0.000 41
  65.230 43.500  0.000 55
  65.220 43.500  0.000 44
  65.210 43.500  0.000 48
  65.200 43.500  0.000 42
  65.190 43.500  0.000 61
  65.180 43.500  0.000 41
  65.170 43.500  0.000 45
  65.160 43.500  0.000 28
  65.150 43.500  0.000 54
  65.140 43.500  0.000 36
  65.130 43.500  0.000 46
  65.120 43.500  0.000 40
  65.110 43.500  0.000 24
  65.100 43.500  0.000 25
  65.090 43.500  0.000 28
  65.080 43.500  0.000 36
  65.070 43.500  0.000 32
  65.060 43.500  0.000 28
  65.050 43.500  0.000 18
  65.040 43.500  0.000 31
  65.030 43.500  0.000 24
  65.020 43.500  0.000 13
  65.010 43.500  0.000 22
  65.000 43.500  0.000 25
  64.990 43.500  0.000 19
  64.980 43.500  0.000 16
  64.970 43.500  0.000 22
  64.960 43.500  0.000 10
  64.950 43.500  0.000 21
  64.940 43.500  0.000 14
  64.930 43.500  0.000 17
  64.920 43.500  0.000 17
  64.910 43.500  0.000 12
  64.900 43.500  0.000 13
  64.890 43.500  0.000 9
  64.880 43.500  0.000 17
  64.870 43.500  0.000 8
  64.860 43.500  0.000 16
  64.850 43.500  0.000 5
  64.840 43.500  0.000 14
  64.830 43.500  0.000 13
  64.820 43.500  0.000 9
  64.810 43.500  0.000 10
  64.800 43.500  0.000 8
  64.790 43.500  0.000 9
  64.780 43.500  0.000 9
  64.770 43.500  0.000 7
  64.760 43.500  0.000 6
  64.750 43.500  0.000 6
  64.740 43.500  0.000 5
  64.730 43.500  0.000 3
  64.720 43.500  0.000 4
  64.710 43.500  0.000 4
  64.700 43.500  0.000 4
  64.690 43.500  0.000 6
  64.680 43.500  0.000 1
  64.670 43.500  0.000 2
  64.660 43.500  0.000 3
  64.650 43.500  0.000 6
  64.640 43.500  0.000 0
  64.630 43.500  0.000 3
  64.620 43.500  0.000 2
  64.610 43.500  0.000 2
  64.600 43.500  0.000 3
  64.590 43.500  0.000 1
  64.580 43.500  0.000 3
  64.570 43.500  0.000 2
  64.560 43.500  0.000 2
  64.550 43.500  0.000 1
  64.540 43.500  0.000 4
  64.530 43.500  0.000 1
  64.520 43.500  0.000 0
  64.510 43.500  0.000 3
  64.500 43.500  0.000 0
  64.490 43.500  0.000 2
  64.480 43.500  0.000 1
  64.470 43.500  0.000 0
  64.460 43.500  0.000 1
  64.450 43.500  0.000 0
  64.440 43.500  0.000 1
  64.430 43.500  0.000 1
  64.420 43.500  0.000 0
  64.410 43.500  0.000 0
  64.400 43.500  0.000 0
  64.390 43.500  0.000 1
  64.380 43.500  0.000 1
  64.370 43.500  0.000 1
  64.360 43.500  0.000 0
  64.350 43.500  0.000 0
  64.340 43.500  0.000 0
  64.330 43.500  0.000 0
  64.320 43.500  0.000 0
  64.310 43.500  0.000 0
  64.300 43.500  0.000 0
  64.290 43.500  0.000 1
  64.280 43.500  0.000 1
  64.270 43.500  0.000 0
  64.260 43.500  0.000 0
  64.250 43.500  0.000 0
  64.240 43.500  0.000 1
  64.230 43.500  0.000 0
  64.220 43.500  0.000 1
  64.210 43.500  0.000 0
  64.200 43.500  0.000 0
  64.190 43.500  0.000 0
  64.180 43.500  0.000 0
  64.170 43.500  0.000 0
  64.160 43.500  0.000 0
  64.150 43.500  0.000 1
  64.140 43.500  0.000 0
  64.130 43.500  0.000 1
  64.120 43.500  0.000 0
  64.110 43.500  0.000 0
  64.100 43.500  0.000 0
  64.090 43.500  0.000 1
  64.080 43.500  0.000 1
  64.070 43.500  0.000 1
  64.060 43.500  0.000 0
  64.050 43.500  0.000 0
  64.040 43.500  0.000 0
  64.030 43.500  0.000 1
  64.020 43.500  0.000 0
  64.010 43.500  0.000 0
  64.000 43.500  0.000 0
  63.990 43.500  0.000 0
